Folder: 2d-benchmarking/test_1

Note: readme
mathematical analysis + lorentz transformation on raman spectra using gemini

File: graphene_peaks.csv
wavenumber_cm1,intensity
300.797,9778.19
519.877,72226.6
773.204,4443.78
971.823,11687.5
1365.17,1993.45
1579.94,9051.81
1768.6,1336.35
1950.08,1159.75
2159.92,911.75
2448.83,1361.43
2670.19,11942.2
2971.84,530.686
3238.38,970.336
3396.1,482.573
3538.09,377.251
3683.05,432.169
3880.46,398.348
4111.23,443.265
4266.39,526.991
4458.86,370.864
4680.18,347.489
4844.6,332.139
4948.62,402.261
5072.39,353.532
5184.54,294.9
5289.29,331.504
5408.57,373.922
5537.8,441.901
5674.82,382.608
5768.15,398.782
5857.3,464.602
5945.44,468.682
6039.31,521.347